t[s]	Bpos	Bspd	A[cm淫	Mma[鑑]	P1[mN/m]	P2[mN/m]	T[蚓]	SP[V]	pH	AD[V]
0.02	0.000	0.000	237.75	144.88	-0.796	0.000	24.23		0.09	0.000
10.18	0.800	5.000	236.55	144.15	-0.798	0.000	24.22		0.09	0.000
20.32	1.641	5.000	235.29	143.38	-0.851	0.000	24.21		0.09	0.000
30.48	2.483	5.000	234.03	142.61	-0.845	0.000	24.21		0.09	0.000
40.62	3.324	5.000	232.76	141.84	-0.879	0.000	24.22		0.09	0.000
50.63	4.149	5.000	231.53	141.09	-0.812	0.000	24.23		0.09	0.000
60.76	4.991	5.000	230.26	140.32	-0.779	0.000	24.23		0.09	0.000
70.92	5.834	5.000	229.00	139.55	-0.760	0.000	24.23		0.09	0.000
80.93	6.666	5.000	227.75	138.78	-0.811	0.000	24.24		0.10	0.000
91.14	7.509	5.000	226.49	138.01	-0.836	0.000	24.24		0.10	0.000
101.31	8.348	5.000	225.23	137.25	-0.849	0.000	24.25		0.10	0.000
111.32	9.183	5.000	223.98	136.48	-0.812	0.000	24.25		0.10	0.000
121.33	10.018	5.000	222.72	135.72	-0.751	0.000	24.25		0.10	0.000
131.33	10.842	5.000	221.49	134.97	-0.783	0.000	24.25		0.10	0.000
141.53	11.692	5.000	220.21	134.19	-0.809	0.000	24.25		0.10	0.000
151.55	12.516	5.000	218.98	133.44	-0.788	0.000	24.25		0.10	0.000
161.72	13.367	5.000	217.70	132.66	-0.783	0.000	24.25		0.10	0.000
171.92	14.206	5.000	216.44	131.89	-0.742	0.000	24.25		0.10	0.000
182.11	15.057	5.000	215.16	131.12	-0.692	0.000	24.26		0.10	0.000
192.32	15.899	5.000	213.90	130.35	-0.637	0.000	24.26		0.10	0.000
202.52	16.749	5.000	212.63	129.57	-0.648	0.000	24.26		0.10	0.000
212.53	17.574	5.000	211.39	128.81	-0.610	0.000	24.26		0.10	0.000
222.71	18.424	5.000	210.11	128.04	-0.564	0.000	24.26		0.10	0.000
232.71	19.249	5.000	208.88	127.28	-0.509	0.000	24.26		0.10	0.000
242.72	20.081	5.000	207.63	126.52	-0.443	0.000	24.26		0.11	0.000
252.91	20.925	5.000	206.36	125.75	-0.341	0.000	24.25		0.11	0.000
263.02	21.767	5.000	205.10	124.98	-0.308	0.000	24.26		0.11	0.000
273.17	22.607	5.000	203.84	124.21	-0.197	0.000	24.26		0.11	0.000
283.31	23.450	5.000	202.57	123.44	-0.063	0.000	24.27		0.11	0.000
293.34	24.282	5.000	201.33	122.68	0.109	0.000	24.26		0.11	0.000
303.53	25.123	5.000	200.06	121.91	0.176	0.000	24.26		0.11	0.000
313.54	25.949	5.000	198.83	121.16	0.329	0.000	24.27		0.11	0.000
323.74	26.799	5.000	197.55	120.38	0.442	0.000	24.27		0.11	0.000
333.75	27.632	5.000	196.30	119.62	0.636	0.000	24.27		0.11	0.000
343.79	28.466	5.000	195.05	118.86	0.751	0.000	24.27		0.11	0.000
353.84	29.299	5.000	193.80	118.10	0.957	0.000	24.27		0.11	0.000
363.92	30.131	5.000	192.55	117.34	1.145	0.000	24.27		0.11	0.000
373.98	30.967	5.000	191.30	116.57	1.292	0.000	24.27		0.12	0.000
384.04	31.799	5.000	190.05	115.81	1.486	0.000	24.27		0.12	0.000
394.11	32.632	5.000	188.80	115.05	1.642	0.000	24.27		0.12	0.000
404.18	33.473	5.000	187.54	114.28	1.813	0.000	24.28		0.12	0.000
414.24	34.308	5.000	186.29	113.52	2.042	0.000	24.27		0.12	0.000
424.32	35.138	5.000	185.04	112.76	2.199	0.000	24.26		0.12	0.000
434.40	35.973	5.000	183.79	112.00	2.426	0.000	24.26		0.12	0.000
444.46	36.806	5.000	182.54	111.24	2.602	0.000	24.26		0.12	0.000
454.52	37.648	5.000	181.28	110.47	2.846	0.000	24.26		0.12	0.000
464.60	38.482	5.000	180.03	109.70	3.031	0.000	24.27		0.12	0.000
474.66	39.315	5.000	178.78	108.94	3.266	0.000	24.27		0.12	0.000
484.73	40.150	5.000	177.53	108.18	3.415	0.000	24.27		0.12	0.000
494.81	40.982	5.000	176.28	107.42	3.691	0.000	24.28		0.12	0.000
504.87	41.823	5.000	175.02	106.65	3.889	0.000	24.28		0.13	0.000
514.94	42.657	5.000	173.76	105.89	4.109	0.000	24.27		0.13	0.000
525.01	43.491	5.000	172.51	105.13	4.264	0.000	24.28		0.13	0.000
535.06	44.324	5.000	171.26	104.36	4.553	0.000	24.28		0.13	0.000
545.13	45.157	5.000	170.01	103.60	4.806	0.000	24.28		0.13	0.000
555.20	45.989	5.000	168.77	102.84	5.003	0.000	24.29		0.13	0.000
565.25	46.824	5.000	167.51	102.08	5.219	0.000	24.29		0.13	0.000
575.30	47.655	5.000	166.27	101.32	5.500	0.000	24.30		0.13	0.000
585.37	48.499	5.000	165.00	100.55	5.753	0.000	24.30		0.13	0.000
595.45	49.333	5.000	163.75	99.79	6.045	0.000	24.29		0.13	0.000
605.51	50.165	5.000	162.50	99.02	6.241	0.000	24.28		0.13	0.000
615.59	50.997	5.000	161.25	98.26	6.485	0.000	24.28		0.14	0.000
625.63	51.831	5.000	160.00	97.50	6.730	0.000	24.28		0.14	0.000
635.69	52.665	5.000	158.75	96.74	7.009	0.000	24.28		0.14	0.000
645.76	53.504	5.000	157.49	95.97	7.322	0.000	24.28		0.14	0.000
655.83	54.338	5.000	156.24	95.21	7.537	0.000	24.29		0.14	0.000
665.90	55.173	5.000	154.99	94.45	7.809	0.000	24.29		0.14	0.000
675.98	56.005	5.000	153.74	93.69	8.098	0.000	24.29		0.14	0.000
686.03	56.840	5.000	152.49	92.92	8.318	0.000	24.29		0.14	0.000
696.09	57.672	5.000	151.24	92.16	8.465	0.000	24.29		0.14	0.000
706.16	58.516	5.000	149.98	91.39	8.684	0.000	24.29		0.14	0.000
716.21	59.348	5.000	148.73	90.63	8.829	0.000	24.29		0.14	0.000
726.29	60.182	5.000	147.48	89.87	9.095	0.000	24.29		0.14	0.000
736.35	61.016	5.000	146.23	89.11	9.241	0.000	24.28		0.15	0.000
746.39	61.846	5.000	144.98	88.35	9.337	0.000	24.29		0.15	0.000
756.46	62.680	5.000	143.73	87.59	9.462	0.000	24.29		0.15	0.000
766.54	63.522	5.000	142.47	86.82	9.612	0.000	24.29		0.15	0.000
776.59	64.355	5.000	141.22	86.05	9.779	0.000	24.30		0.15	0.000
786.67	65.187	5.000	139.97	85.29	9.882	0.000	24.29		0.15	0.000
796.75	66.022	5.000	138.72	84.53	9.945	0.000	24.29		0.15	0.000
806.80	66.856	5.000	137.47	83.77	10.022	0.000	24.30		0.15	0.000
816.87	67.690	5.000	136.22	83.01	10.149	0.000	24.30		0.15	0.000
826.95	68.531	5.000	134.95	82.24	10.327	0.000	24.31		0.15	0.000
837.02	69.365	5.000	133.70	81.47	10.461	0.000	24.31		0.15	0.000
847.09	70.198	5.000	132.45	80.71	10.557	0.000	24.32		0.16	0.000
857.17	71.039	5.000	131.19	79.94	10.678	0.000	24.32		0.16	0.000
867.19	71.864	5.000	129.95	79.19	10.792	0.000	24.32		0.16	0.000
877.24	72.697	5.000	128.70	78.43	10.937	0.000	24.32		0.16	0.000
887.32	73.538	5.000	127.44	77.66	11.109	0.000	24.32		0.16	0.000
897.38	74.371	5.000	126.19	76.90	11.171	0.000	24.31		0.16	0.000
907.43	75.206	5.000	124.94	76.14	11.347	0.000	24.31		0.16	0.000
917.51	76.037	5.000	123.69	75.38	11.501	0.000	24.31		0.16	0.000
927.54	76.873	5.000	122.44	74.61	11.678	0.000	24.31		0.16	0.000
937.62	77.705	5.000	121.19	73.85	11.803	0.000	24.31		0.16	0.000
947.69	78.537	5.000	119.95	73.09	11.980	0.000	24.31		0.16	0.000
957.75	79.380	5.000	118.68	72.32	12.166	0.000	24.32		0.16	0.000
967.83	80.213	5.000	117.43	71.56	12.414	0.000	24.32		0.17	0.000
977.90	81.045	5.000	116.18	70.80	12.579	0.000	24.31		0.17	0.000
987.94	81.880	5.000	114.93	70.04	12.818	0.000	24.31		0.17	0.000
998.02	82.715	5.000	113.68	69.27	13.082	0.000	24.32		0.17	0.000
1008.10	83.556	5.000	112.42	68.50	13.327	0.000	24.32		0.17	0.000
1018.17	84.386	5.000	111.17	67.74	13.627	0.000	24.32		0.17	0.000
1028.22	85.221	5.000	109.92	66.98	13.870	0.000	24.31		0.17	0.000
1038.29	86.053	5.000	108.67	66.22	14.208	0.000	24.32		0.17	0.000
1048.35	86.889	5.000	107.42	65.46	14.491	0.000	24.32		0.17	0.000
1058.43	87.722	5.000	106.17	64.70	14.860	0.000	24.32		0.17	0.000
1068.49	88.563	5.000	104.91	63.93	15.218	0.000	24.32		0.17	0.000
1078.56	89.398	5.000	103.65	63.16	15.678	0.000	24.33		0.17	0.000
1088.64	90.228	5.000	102.41	62.40	16.221	0.000	24.33		0.18	0.000
1098.69	91.064	5.000	101.15	61.64	16.812	0.000	24.33		0.18	0.000
1108.75	91.898	5.000	99.90	60.88	17.383	0.000	24.33		0.18	0.000
1118.82	92.728	5.000	98.66	60.12	17.984	0.000	24.33		0.18	0.000
1128.90	93.571	5.000	97.39	59.35	18.728	0.000	24.33		0.18	0.000
1138.96	94.405	5.000	96.14	58.59	19.512	0.000	24.33		0.18	0.000
1149.03	95.236	5.000	94.90	57.83	20.329	0.000	24.33		0.18	0.000
1159.10	96.072	5.000	93.64	57.06	21.265	0.000	24.34		0.18	0.000
1169.16	96.905	5.000	92.39	56.30	22.258	0.000	24.34		0.18	0.000
1179.23	97.746	5.000	91.13	55.53	23.339	0.000	24.34		0.18	0.000
1189.30	98.579	5.000	89.88	54.77	24.465	0.000	24.33		0.18	0.000
1199.35	99.413	5.000	88.63	54.01	25.681	0.000	24.32		0.18	0.000
1209.42	100.247	5.000	87.38	53.25	27.046	0.000	24.32		0.19	0.000
1219.49	101.081	5.000	86.13	52.48	28.527	0.000	24.33		0.19	0.000
1229.51	101.913	5.000	84.88	51.72	30.065	0.000	24.33		0.19	0.000
1239.59	102.746	5.000	83.63	50.96	31.754	0.000	24.34		0.19	0.000
1249.67	103.586	5.000	82.37	50.19	33.726	0.000	24.35		0.19	0.000
1259.74	104.421	5.000	81.12	49.43	35.823	0.000	24.35		0.19	0.000
1269.79	105.255	5.000	79.87	48.67	38.075	0.000	24.35		0.19	0.000
1279.86	106.087	5.000	78.62	47.91	40.446	0.000	24.35		0.19	0.000
1289.93	106.919	5.000	77.37	47.15	43.099	0.000	24.35		0.19	0.000
1299.99	107.547	-1.995	76.43	46.57	45.026	0.000	24.35		0.19	0.000
1310.06	107.711	1.995	76.18	46.42	44.950	0.000	24.35		0.19	0.000
1320.14	107.887	1.995	75.92	46.26	45.009	0.000	24.35		0.19	0.000
1330.18	107.980	-1.995	75.78	46.18	45.159	0.000	24.35		0.19	0.000
1340.25	108.060	-1.995	75.66	46.11	45.086	0.000	24.35		0.19	0.000
1350.31	108.129	-1.995	75.56	46.04	44.973	0.000	24.34		0.20	0.000
1360.39	108.182	1.995	75.48	45.99	44.903	0.000	24.34		0.20	0.000
1370.45	108.315	1.995	75.28	45.87	44.846	0.000	24.34		0.20	0.000
1380.52	108.423	1.995	75.12	45.77	44.851	0.000	24.33		0.20	0.000
1390.57	108.546	1.995	74.93	45.66	44.986	0.000	24.34		0.20	0.000
1400.65	108.619	-0.180	74.82	45.59	45.084	0.000	24.34		0.20	0.000
1410.71	108.639	-1.995	74.79	45.58	45.131	0.000	24.34		0.20	0.000
1420.78	108.652	-1.995	74.77	45.56	45.014	0.000	24.34		0.20	0.000
1430.85	108.712	-1.815	74.68	45.51	44.998	0.000	24.34		0.20	0.000
1440.89	108.769	-1.995	74.60	45.46	45.000	0.000	24.34		0.20	0.000
1450.93	108.824	-1.995	74.51	45.41	45.000	0.000	24.33		0.20	0.000
1461.01	108.879	-1.995	74.43	45.36	44.969	0.000	24.34		0.20	0.000
1471.05	108.923	1.995	74.37	45.32	44.861	0.000	24.33		0.20	0.000
1481.11	108.985	1.995	74.27	45.26	44.852	0.000	24.33		0.21	0.000
1491.19	109.046	1.995	74.18	45.20	44.914	0.000	24.32		0.21	0.000
1501.26	109.152	1.995	74.02	45.11	44.983	0.000	24.33		0.21	0.000
1511.31	109.197	1.995	73.95	45.07	44.995	0.000	24.34		0.21	0.000
1521.38	109.244	-0.144	73.88	45.02	45.064	0.000	24.35		0.21	0.000
1531.43	109.215	-1.995	73.93	45.05	45.064	0.000	24.35		0.21	0.000
1541.51	109.220	-1.995	73.92	45.04	45.009	0.000	24.36		0.21	0.000
1551.57	109.282	1.995	73.83	44.99	44.869	0.000	24.35		0.21	0.000
1561.63	109.360	-0.084	73.71	44.92	45.058	0.000	24.36		0.21	0.000
1571.68	109.355	-1.526	73.72	44.92	45.009	0.000	24.35		0.21	0.000
1581.76	109.324	1.995	73.76	44.95	44.923	0.000	24.35		0.21	0.000
1591.83	109.415	1.995	73.63	44.87	45.010	0.000	24.34		0.21	0.000
1601.91	109.411	-1.995	73.63	44.87	45.047	0.000	24.33		0.21	0.000
1611.97	109.406	1.995	73.64	44.87	44.943	0.000	24.33		0.21	0.000
1622.01	109.493	1.995	73.51	44.80	44.968	0.000	24.34		0.21	0.000
1632.08	109.571	1.298	73.39	44.72	45.011	0.000	24.34		0.21	0.000
1642.15	109.599	-1.995	73.35	44.70	45.134	0.000	24.34		0.22	0.000
1652.22	109.569	-1.827	73.40	44.73	45.000	0.000	24.34		0.22	0.000
1662.30	109.564	1.995	73.40	44.73	44.904	0.000	24.34		0.22	0.000
1672.33	109.655	1.995	73.27	44.65	44.895	0.000	24.35		0.22	0.000
1682.40	109.720	1.995	73.17	44.59	44.993	0.000	24.35		0.22	0.000
1692.48	109.775	-1.995	73.09	44.54	45.158	0.000	24.36		0.22	0.000
1702.54	109.756	-0.781	73.12	44.55	44.985	0.000	24.36		0.22	0.000
1712.60	109.773	1.995	73.09	44.54	44.858	0.000	24.35		0.22	0.000
1722.67	109.880	1.442	72.93	44.44	45.068	0.000	24.35		0.22	0.000
1732.72	109.888	1.959	72.92	44.43	45.035	0.000	24.35		0.22	0.000
1742.78	109.858	-1.995	72.96	44.46	45.087	0.000	24.34		0.22	0.000
1752.83	109.864	1.995	72.95	44.46	44.934	0.000	24.34		0.22	0.000
1762.91	109.939	0.313	72.84	44.39	44.977	0.000	24.34		0.22	0.000
1772.96	109.935	-1.322	72.85	44.39	44.993	0.000	24.33		0.22	0.000
1783.03	109.901	0.673	72.90	44.42	44.933	0.000	24.34		0.22	0.000
1793.08	110.001	1.995	72.75	44.33	44.912	0.000	24.34		0.22	0.000
1803.14	110.039	1.995	72.69	44.30	45.021	0.000	24.35		0.22	0.000
1813.22	110.007	-0.505	72.74	44.33	44.918	0.000	24.35		0.23	0.000
1823.28	110.014	1.995	72.73	44.32	44.906	0.000	24.36		0.23	0.000
1833.36	110.048	0.433	72.68	44.29	44.932	0.000	24.36		0.23	0.000
1843.43	110.102	-0.853	72.60	44.24	44.896	0.000	24.36		0.23	0.000
1853.49	110.138	0.204	72.54	44.21	44.929	0.000	24.36		0.23	0.000
1863.55	110.275	1.995	72.34	44.08	44.947	0.000	24.37		0.23	0.000
1873.62	110.329	0.457	72.26	44.03	45.024	0.000	24.36		0.23	0.000
1883.69	110.306	-1.995	72.29	44.05	45.065	0.000	24.36		0.23	0.000
1893.75	110.330	-1.995	72.25	44.03	45.062	0.000	24.36		0.23	0.000
1903.83	110.349	1.995	72.23	44.01	44.939	0.000	24.35		0.23	0.000
1913.88	110.401	1.995	72.15	43.97	44.922	0.000	24.36		0.23	0.000
1923.93	110.498	1.995	72.00	43.88	44.981	0.000	24.36		0.23	0.000
1934.00	110.544	-0.084	71.93	43.83	45.115	0.000	24.36		0.23	0.000
1944.08	110.534	-1.995	71.95	43.84	45.135	0.000	24.35		0.23	0.000
1954.15	110.496	0.781	72.01	43.88	44.900	0.000	24.35		0.23	0.000
1964.23	110.572	1.995	71.89	43.81	44.884	0.000	24.36		0.23	0.000
1974.31	110.635	-1.178	71.80	43.75	45.103	0.000	24.35		0.24	0.000
1984.35	110.590	-1.010	71.86	43.79	44.969	0.000	24.35		0.24	0.000
1994.42	110.630	1.995	71.80	43.76	44.936	0.000	24.34		0.24	0.000
2004.50	110.703	1.863	71.70	43.69	45.013	0.000	24.35		0.24	0.000
2014.56	110.694	-1.995	71.71	43.70	45.066	0.000	24.35		0.24	0.000
2024.64	110.712	1.995	71.68	43.68	44.902	0.000	24.35		0.24	0.000
2034.69	110.710	1.995	71.69	43.68	44.894	0.000	24.36		0.24	0.000
2044.76	110.803	-1.995	71.55	43.60	45.140	0.000	24.36		0.24	0.000
2054.80	110.756	-1.250	71.62	43.64	44.979	0.000	24.34		0.24	0.000
2064.88	110.784	1.995	71.57	43.62	44.906	0.000	24.35		0.24	0.000
2074.89	110.860	1.262	71.46	43.55	45.002	0.000	24.35		0.24	0.000
2084.95	110.816	-1.514	71.53	43.59	45.009	0.000	24.36		0.24	0.000
2095.00	110.820	1.995	71.52	43.58	44.974	0.000	24.36		0.24	0.000
2105.07	110.879	-0.385	71.43	43.53	44.973	0.000	24.36		0.24	0.000
2115.12	110.853	-1.995	71.47	43.55	45.038	0.000	24.36		0.24	0.000
2125.20	110.881	1.995	71.43	43.53	44.966	0.000	24.34		0.24	0.000
2135.26	110.911	-1.995	71.38	43.50	45.115	0.000	24.35		0.24	0.000
2145.32	110.887	1.863	71.42	43.52	44.930	0.000	24.34		0.24	0.000
2155.38	110.949	-0.445	71.33	43.46	45.060	0.000	24.34		0.25	0.000
2165.46	110.901	-1.334	71.40	43.51	44.965	0.000	24.34		0.25	0.000
2175.52	110.947	1.995	71.33	43.47	44.866	0.000	24.34		0.25	0.000
2185.59	111.044	1.995	71.18	43.38	45.041	0.000	24.35		0.25	0.000
2195.67	111.067	0.805	71.15	43.36	44.988	0.000	24.35		0.25	0.000
2205.73	111.066	-1.995	71.15	43.36	45.134	0.000	24.35		0.25	0.000
2215.80	111.028	0.469	71.21	43.39	44.934	0.000	24.36		0.25	0.000
2225.87	111.084	1.995	71.12	43.34	44.986	0.000	24.36		0.25	0.000
2235.92	111.128	-1.995	71.06	43.30	45.094	0.000	24.36		0.25	0.000
2246.00	111.105	-1.130	71.09	43.32	45.019	0.000	24.36		0.25	0.000
2256.07	111.033	1.238	71.20	43.39	44.906	0.000	24.35		0.25	0.000
2266.12	111.105	1.995	71.09	43.32	44.833	0.000	24.36		0.25	0.000
2276.18	111.198	-1.995	70.95	43.24	45.216	0.000	24.36		0.25	0.000
2286.26	111.176	-1.935	70.99	43.26	45.083	0.000	24.37		0.25	0.000
2296.34	111.114	-0.325	71.08	43.31	44.917	0.000	24.37		0.25	0.000
2306.40	111.197	1.995	70.95	43.24	45.012	0.000	24.37		0.25	0.000
2316.47	111.180	-1.995	70.98	43.25	45.093	0.000	24.37		0.25	0.000
2326.55	111.158	0.216	71.01	43.27	44.943	0.000	24.37		0.25	0.000
2336.58	111.230	1.995	70.90	43.21	44.966	0.000	24.38		0.26	0.000
2346.65	111.258	-1.683	70.86	43.18	45.029	0.000	24.37		0.26	0.000
2356.70	111.197	-1.070	70.95	43.24	44.982	0.000	24.37		0.26	0.000
2366.75	111.255	1.995	70.87	43.19	44.964	0.000	24.38		0.26	0.000
2376.82	111.271	-1.995	70.84	43.17	45.033	0.000	24.38		0.26	0.000
2386.87	111.197	0.180	70.95	43.24	44.967	0.000	24.38		0.26	0.000
2396.92	111.269	1.995	70.85	43.17	44.945	0.000	24.38		0.26	0.000
2407.00	111.320	-1.406	70.77	43.13	45.037	0.000	24.38		0.26	0.000
2417.08	111.263	-1.995	70.85	43.18	45.059	0.000	24.38		0.26	0.000
2427.15	111.293	1.995	70.81	43.15	44.930	0.000	24.38		0.26	0.000
2437.19	111.374	1.995	70.69	43.08	44.995	0.000	24.38		0.26	0.000
2447.25	111.387	-1.995	70.67	43.06	45.112	0.000	24.38		0.26	0.000
2457.31	111.360	0.156	70.71	43.09	44.946	0.000	24.38		0.26	0.000
2467.39	111.370	1.995	70.70	43.08	44.804	0.000	24.38		0.26	0.000
2477.45	111.489	-0.120	70.52	42.97	45.066	0.000	24.38		0.26	0.000
2487.53	111.469	-1.995	70.55	42.99	45.072	0.000	24.38		0.26	0.000
2497.60	111.443	1.286	70.59	43.01	44.951	0.000	24.39		0.26	0.000
2507.65	111.522	1.490	70.47	42.94	45.019	0.000	24.39		0.26	0.000
2517.70	111.515	-1.995	70.48	42.95	45.116	0.000	24.39		0.26	0.000
2527.74	111.457	-1.995	70.56	43.00	44.991	0.000	24.39		0.27	0.000
2537.82	111.488	1.995	70.52	42.97	44.862	0.000	24.39		0.27	0.000
2547.88	111.576	-0.252	70.39	42.89	45.085	0.000	24.39		0.27	0.000
2557.95	111.535	-1.995	70.45	42.93	45.052	0.000	24.39		0.27	0.000
2568.00	111.505	1.995	70.49	42.96	44.925	0.000	24.39		0.27	0.000
2578.08	111.596	1.995	70.36	42.87	44.941	0.000	24.38		0.27	0.000
2588.15	111.599	-1.995	70.35	42.87	45.040	0.000	24.39		0.27	0.000
2598.23	111.546	1.995	70.43	42.92	44.892	0.000	24.39		0.27	0.000
2608.30	111.657	1.995	70.26	42.82	44.970	0.000	24.38		0.27	0.000
2618.36	111.683	-0.998	70.23	42.79	45.116	0.000	24.37		0.27	0.000
2628.41	111.705	-1.995	70.19	42.77	45.216	0.000	24.37		0.27	0.000
2638.48	111.681	-1.995	70.23	42.79	45.060	0.000	24.38		0.27	0.000
2648.54	111.638	1.995	70.29	42.83	44.848	0.000	24.37		0.27	0.000
2658.61	111.730	1.995	70.15	42.75	45.004	0.000	24.37		0.27	0.000
2668.66	111.742	-1.995	70.14	42.74	45.129	0.000	24.37		0.27	0.000
2678.73	111.680	-0.493	70.23	42.80	44.944	0.000	24.38		0.27	0.000
2688.79	111.789	1.659	70.07	42.70	45.000	0.000	24.38		0.27	0.000
2698.85	111.792	-1.995	70.06	42.69	45.110	0.000	24.38		0.27	0.000
2708.92	111.739	1.995	70.14	42.74	44.889	0.000	24.38		0.27	0.000
2719.00	111.837	1.262	70.00	42.65	45.013	0.000	24.38		0.28	0.000
2729.06	111.808	-1.995	70.04	42.68	45.095	0.000	24.38		0.28	0.000
2739.12	111.766	1.995	70.10	42.72	44.928	0.000	24.38		0.28	0.000
2749.16	111.797	1.995	70.05	42.69	44.899	0.000	24.39		0.28	0.000
2759.24	111.857	-1.995	69.96	42.63	45.046	0.000	24.38		0.28	0.000
2769.31	111.799	-0.901	70.05	42.69	44.950	0.000	24.38		0.28	0.000
2779.37	111.842	1.995	69.99	42.65	44.915	0.000	24.38		0.28	0.000
2789.43	111.879	-1.995	69.93	42.61	45.059	0.000	24.38		0.28	0.000
2799.49	111.821	1.995	70.02	42.67	44.939	0.000	24.38		0.28	0.000
2809.57	111.893	-0.469	69.91	42.60	45.053	0.000	24.39		0.28	0.000
2819.64	111.856	-1.995	69.97	42.64	45.006	0.000	24.39		0.28	0.000
2829.68	111.887	1.995	69.92	42.61	44.903	0.000	24.39		0.28	0.000
2839.75	111.931	-1.995	69.85	42.57	45.158	0.000	24.39		0.28	0.000
2849.81	111.855	-1.899	69.97	42.64	44.978	0.000	24.39		0.28	0.000
2859.89	111.893	1.995	69.91	42.60	44.895	0.000	24.38		0.28	0.000
2869.94	111.928	-1.995	69.86	42.57	45.068	0.000	24.39		0.28	0.000
2880.00	111.874	1.995	69.94	42.62	44.916	0.000	24.39		0.28	0.000
2890.07	111.953	-1.995	69.82	42.55	45.049	0.000	24.39		0.28	0.000
2900.15	111.874	-0.769	69.94	42.62	44.956	0.000	24.39		0.28	0.000
2910.19	111.911	1.995	69.88	42.59	44.881	0.000	24.39		0.28	0.000
2920.26	111.960	-1.995	69.81	42.54	45.106	0.000	24.39		0.28	0.000
2930.33	111.906	1.875	69.89	42.59	44.956	0.000	24.39		0.28	0.000
2940.41	111.974	-0.192	69.79	42.53	45.035	0.000	24.39		0.29	0.000
2950.47	111.925	-0.313	69.86	42.57	44.940	0.000	24.39		0.29	0.000
2960.54	111.906	1.995	69.89	42.59	44.896	0.000	24.39		0.29	0.000
2970.61	111.994	1.995	69.76	42.51	45.001	0.000	24.39		0.29	0.000
2980.64	111.980	-1.995	69.78	42.52	45.013	0.000	24.39		0.29	0.000
2990.68	111.937	1.719	69.85	42.56	44.946	0.000	24.39		0.29	0.000
3000.75	112.033	0.889	69.70	42.47	45.062	0.000	24.39		0.29	0.000
3010.82	111.990	-1.995	69.76	42.51	45.046	0.000	24.39		0.29	0.000
3020.90	112.003	1.995	69.75	42.50	44.905	0.000	24.39		0.29	0.000
3030.95	112.047	-1.995	69.68	42.46	45.092	0.000	24.39		0.29	0.000
3040.99	111.996	1.995	69.76	42.51	44.958	0.000	24.39		0.29	0.000
3051.07	112.062	-1.430	69.66	42.45	45.088	0.000	24.40		0.29	0.000
3061.15	112.010	0.156	69.74	42.49	44.949	0.000	24.40		0.29	0.000
3071.21	112.006	1.995	69.74	42.50	44.881	0.000	24.39		0.29	0.000
3081.28	112.088	-1.995	69.62	42.42	45.096	0.000	24.39		0.29	0.000
3091.36	112.016	1.154	69.73	42.49	44.923	0.000	24.39		0.29	0.000
3101.42	112.084	1.995	69.62	42.43	44.969	0.000	24.39		0.29	0.000
3111.48	112.072	-1.995	69.64	42.44	45.052	0.000	24.39		0.29	0.000
3121.56	112.015	0.168	69.73	42.49	44.973	0.000	24.40		0.29	0.000
3131.62	112.074	1.995	69.64	42.44	44.971	0.000	24.40		0.29	0.000
3141.68	112.096	-1.995	69.61	42.42	45.069	0.000	24.40		0.29	0.000
3151.76	112.039	1.995	69.69	42.47	44.855	0.000	24.40		0.29	0.000
3161.82	112.131	-0.397	69.55	42.38	45.071	0.000	24.40		0.29	0.000
3171.86	112.057	-0.925	69.66	42.45	44.994	0.000	24.40		0.29	0.000
3181.93	112.102	1.995	69.60	42.41	44.836	0.000	24.39		0.30	0.000
3191.99	112.172	1.995	69.49	42.35	44.949	0.000	24.39		0.30	0.000
3202.05	112.196	-1.154	69.46	42.33	45.029	0.000	24.39		0.30	0.000
3212.13	112.149	1.683	69.53	42.37	44.932	0.000	24.39		0.30	0.000
3222.19	112.176	1.995	69.49	42.34	44.882	0.000	24.39		0.30	0.000
3232.26	112.192	-0.974	69.46	42.33	45.010	0.000	24.39		0.30	0.000
3242.28	112.192	1.022	69.46	42.33	44.955	0.000	24.38		0.30	0.000
3252.36	112.242	-1.022	69.39	42.28	45.066	0.000	24.38		0.30	0.000
3262.44	112.194	-1.995	69.46	42.33	45.021	0.000	24.38		0.30	0.000
3272.46	112.213	1.995	69.43	42.31	44.948	0.000	24.38		0.30	0.000
3282.54	112.239	-1.995	69.39	42.29	45.116	0.000	24.37		0.30	0.000
3292.61	112.190	1.406	69.46	42.33	44.976	0.000	24.37		0.30	0.000
3302.67	112.247	-0.288	69.38	42.28	45.035	0.000	24.37		0.30	0.000
3312.74	112.210	-1.575	69.44	42.31	44.983	0.000	24.37		0.30	0.000
3322.82	112.235	1.995	69.40	42.29	44.942	0.000	24.37		0.30	0.000
3332.86	112.270	-1.995	69.35	42.26	45.184	0.000	24.36		0.30	0.000
3342.94	112.258	-1.995	69.36	42.27	45.074	0.000	24.37		0.30	0.000
3353.01	112.266	1.995	69.35	42.26	44.907	0.000	24.37		0.30	0.000
3363.08	112.329	1.995	69.26	42.20	44.868	0.000	24.38		0.30	0.000
3373.15	112.439	1.995	69.09	42.10	44.985	0.000	24.38		0.30	0.000
3383.23	112.462	0.300	69.06	42.08	45.002	0.000	24.38		0.30	0.000
3393.27	112.426	-1.995	69.11	42.11	45.013	0.000	24.39		0.30	0.000
3403.35	112.481	1.995	69.03	42.06	44.926	0.000	24.38		0.30	0.000
3413.43	112.535	1.995	68.95	42.01	44.964	0.000	24.38		0.30	0.000
3423.50	112.562	-1.995	68.91	41.99	45.107	0.000	24.38		0.30	0.000
3433.56	112.525	-1.995	68.96	42.02	45.015	0.000	24.38		0.30	0.000
3443.64	112.563	1.995	68.90	41.99	44.902	0.000	24.38		0.30	0.000
3453.70	112.563	1.995	68.90	41.99	44.901	0.000	24.38		0.30	0.000
3463.76	112.647	-1.502	68.78	41.91	45.063	0.000	24.38		0.31	0.000
3473.80	112.594	0.313	68.86	41.96	44.980	0.000	24.38		0.31	0.000
3483.88	112.638	1.995	68.79	41.92	44.932	0.000	24.38		0.31	0.000
3493.95	112.675	1.995	68.74	41.89	44.961	0.000	24.38		0.31	0.000
3504.03	112.701	-1.995	68.70	41.86	45.074	0.000	24.38		0.31	0.000
3514.08	112.649	1.995	68.78	41.91	44.937	0.000	24.38		0.31	0.000
3524.16	112.708	1.995	68.69	41.86	44.982	0.000	24.38		0.31	0.000
3534.23	112.774	-1.995	68.59	41.80	45.168	0.000	24.38		0.31	0.000
3544.30	112.739	-1.995	68.64	41.83	45.092	0.000	24.38		0.31	0.000
3554.37	112.757	1.995	68.61	41.81	44.890	0.000	24.38		0.31	0.000
3564.43	112.806	0.481	68.54	41.77	45.025	0.000	24.38		0.31	0.000
3574.46	112.772	-1.995	68.59	41.80	45.019	0.000	24.39		0.31	0.000
3584.54	112.751	1.995	68.62	41.82	44.868	0.000	24.39		0.31	0.000
3594.60	112.853	1.995	68.47	41.72	45.038	0.000	24.39		0.31	0.000
3604.64	112.863	-1.995	68.45	41.71	45.207	0.000	24.39		0.31	0.000
3614.72	112.799	-1.995	68.55	41.77	44.924	0.000	24.39		0.31	0.000
3624.80	112.885	1.058	68.42	41.69	45.005	0.000	24.39		0.31	0.000
3634.83	112.881	-1.995	68.43	41.70	45.075	0.000	24.39		0.31	0.000
3644.91	112.856	1.719	68.47	41.72	44.919	0.000	24.39		0.31	0.000
3654.98	112.880	1.995	68.43	41.70	44.900	0.000	24.39		0.31	0.000
3665.05	112.937	-1.995	68.35	41.65	45.144	0.000	24.39		0.31	0.000
3675.12	112.915	1.142	68.38	41.67	44.981	0.000	24.39		0.31	0.000
3685.20	112.951	1.995	68.32	41.63	44.938	0.000	24.39		0.31	0.000
3695.25	112.979	-1.995	68.28	41.61	45.027	0.000	24.40		0.31	0.000
3705.33	112.910	-0.962	68.39	41.67	44.987	0.000	24.40		0.31	0.000
3715.40	112.975	1.995	68.29	41.61	44.951	0.000	24.40		0.31	0.000
3725.48	113.004	-1.995	68.24	41.59	45.182	0.000	24.40		0.31	0.000
3735.52	112.962	-1.995	68.31	41.62	45.012	0.000	24.40		0.31	0.000
3745.60	113.026	1.995	68.21	41.57	44.985	0.000	24.40		0.31	0.000
3755.66	113.052	-1.995	68.17	41.54	45.091	0.000	24.40		0.31	0.000
3765.72	113.008	-1.995	68.24	41.58	45.001	0.000	24.40		0.32	0.000
3775.80	113.045	1.995	68.18	41.55	44.925	0.000	24.40		0.32	0.000
3785.88	113.047	1.995	68.18	41.55	44.855	0.000	24.39		0.32	0.000
3795.92	113.145	-1.995	68.03	41.46	45.179	0.000	24.40		0.32	0.000
3805.99	113.102	-1.995	68.10	41.50	45.069	0.000	24.39		0.32	0.000
3816.06	113.088	1.995	68.12	41.51	44.868	0.000	24.39		0.32	0.000
3826.13	113.156	1.995	68.02	41.45	44.966	0.000	24.39		0.32	0.000
3836.20	113.199	-1.995	67.95	41.41	45.077	0.000	24.40		0.32	0.000
3846.27	113.136	-1.358	68.05	41.46	44.977	0.000	24.40		0.32	0.000
3856.35	113.129	1.995	68.06	41.47	44.936	0.000	24.40		0.32	0.000
3866.35	113.230	1.671	67.90	41.38	45.050	0.000	24.40		0.32	0.000
3876.42	113.239	-1.995	67.89	41.37	45.116	0.000	24.40		0.32	0.000
3886.50	113.203	-0.012	67.95	41.40	44.958	0.000	24.40		0.32	0.000
3896.55	113.286	1.995	67.82	41.33	45.028	0.000	24.39		0.32	0.000
3906.63	113.283	-1.995	67.83	41.33	45.087	0.000	24.39		0.32	0.000
3916.70	113.220	1.827	67.92	41.39	44.914	0.000	24.39		0.32	0.000
3926.76	113.299	1.995	67.80	41.32	44.892	0.000	24.38		0.32	0.000
3936.82	113.333	-1.995	67.75	41.29	45.028	0.000	24.38		0.32	0.000
3946.90	113.260	-0.349	67.86	41.35	44.946	0.000	24.38		0.32	0.000
3956.96	113.336	1.995	67.75	41.28	44.934	0.000	24.38		0.32	0.000
3967.03	113.383	1.995	67.68	41.24	45.018	0.000	24.39		0.32	0.000
3977.11	113.375	-1.995	67.69	41.25	45.086	0.000	24.39		0.32	0.000
3987.16	113.324	-0.180	67.76	41.29	44.927	0.000	24.39		0.32	0.000
3997.21	113.394	1.995	67.66	41.23	44.947	0.000	24.39		0.32	0.000
4007.29	113.434	-1.995	67.60	41.19	45.102	0.000	24.39		0.32	0.000
4017.37	113.379	-0.613	67.68	41.24	45.022	0.000	24.39		0.32	0.000
4027.44	113.372	1.995	67.69	41.25	44.917	0.000	24.39		0.32	0.000
4037.51	113.429	1.310	67.61	41.20	44.994	0.000	24.39		0.32	0.000
4047.57	113.406	-1.995	67.64	41.22	45.047	0.000	24.39		0.32	0.000
4057.65	113.344	-1.959	67.73	41.28	45.025	0.000	24.39		0.32	0.000
4067.71	113.436	-1.995	67.60	41.19	45.131	0.000	24.38		0.32	0.000
4077.79	113.388	-1.995	67.67	41.24	45.037	0.000	24.38		0.32	0.000
4087.85	113.397	1.995	67.65	41.23	44.884	0.000	24.39		0.32	0.000
4097.92	113.463	-1.995	67.55	41.17	45.091	0.000	24.39		0.32	0.000
4107.97	113.393	0.361	67.66	41.23	44.969	0.000	24.39		0.32	0.000
4118.03	113.445	1.707	67.58	41.18	45.008	0.000	24.38		0.32	0.000
4128.10	113.445	-1.995	67.58	41.18	45.086	0.000	24.38		0.32	0.000
4138.17	113.397	1.995	67.65	41.23	44.927	0.000	24.38		0.33	0.000
4148.24	113.485	-1.995	67.52	41.15	45.138	0.000	24.39		0.33	0.000
4158.32	113.436	-1.995	67.60	41.19	45.103	0.000	24.39		0.33	0.000
4168.37	113.384	1.995	67.67	41.24	44.922	0.000	24.39		0.33	0.000
4178.43	113.462	1.995	67.56	41.17	45.031	0.000	24.39		0.33	0.000
4188.50	113.454	-1.202	67.57	41.17	45.071	0.000	24.39		0.33	0.000
4198.57	113.426	0.589	67.61	41.20	44.962	0.000	24.39		0.33	0.000
4208.65	113.474	-0.505	67.54	41.16	45.039	0.000	24.39		0.33	0.000
4218.72	113.403	-1.995	67.65	41.22	44.979	0.000	24.40		0.33	0.000
4228.78	113.453	1.995	67.57	41.18	44.960	0.000	24.40		0.33	0.000
4238.86	113.457	-1.995	67.56	41.17	45.064	0.000	24.40		0.33	0.000
4248.94	113.404	1.995	67.64	41.22	44.894	0.000	24.40		0.33	0.000
4259.01	113.461	1.995	67.56	41.17	44.995	0.000	24.39		0.33	0.000
4269.07	113.408	-1.358	67.64	41.22	44.964	0.000	24.39		0.33	0.000
4279.15	113.461	1.995	67.56	41.17	44.931	0.000	24.39		0.33	0.000
4289.21	113.478	-1.995	67.53	41.15	45.070	0.000	24.39		0.33	0.000
4299.28	113.421	0.120	67.62	41.20	44.949	0.000	24.39		0.33	0.000
4309.35	113.497	-1.166	67.50	41.14	45.058	0.000	24.39		0.33	0.000
4319.43	113.430	-1.755	67.60	41.20	45.018	0.000	24.39		0.33	0.000
4329.50	113.463	1.995	67.55	41.17	44.944	0.000	24.39		0.33	0.000
4339.58	113.498	-1.995	67.50	41.13	45.136	0.000	24.39		0.33	0.000
4349.63	113.433	-0.385	67.60	41.19	44.935	0.000	24.39		0.33	0.000
4359.71	113.508	-1.178	67.49	41.13	45.094	0.000	24.38		0.33	0.000
4369.78	113.431	1.034	67.60	41.20	44.962	0.000	24.38		0.33	0.000
4379.85	113.494	1.851	67.51	41.14	44.991	0.000	24.38		0.33	0.000
4389.92	113.476	-1.995	67.54	41.15	45.020	0.000	24.38		0.33	0.000
4399.98	113.428	1.995	67.61	41.20	44.955	0.000	24.38		0.33	0.000
4410.06	113.501	-0.108	67.50	41.13	45.035	0.000	24.39		0.33	0.000
4420.14	113.438	-1.995	67.59	41.19	44.986	0.000	24.39		0.33	0.000
4430.21	113.484	1.995	67.52	41.15	44.868	0.000	24.39		0.33	0.000
4440.26	113.572	1.995	67.39	41.07	44.987	0.000	24.39		0.33	0.000
4450.34	113.599	-1.995	67.35	41.04	45.150	0.000	24.39		0.33	0.000
4460.40	113.565	-1.995	67.40	41.07	45.040	0.000	24.40		0.33	0.000
4470.46	113.542	1.995	67.44	41.09	44.882	0.000	24.40		0.33	0.000
4480.54	113.621	1.995	67.32	41.02	44.915	0.000	24.40		0.33	0.000
4490.61	113.658	-1.995	67.26	40.99	45.188	0.000	24.39		0.33	0.000
4500.69	113.638	-1.995	67.29	41.01	45.002	0.000	24.39		0.33	0.000
4510.76	113.656	1.995	67.27	40.99	44.907	0.000	24.39		0.33	0.000
4520.83	113.708	1.995	67.19	40.94	44.953	0.000	24.40		0.33	0.000
4530.89	113.716	-1.995	67.18	40.94	45.059	0.000	24.40		0.33	0.000
4540.96	113.684	1.995	67.22	40.96	44.920	0.000	24.40		0.33	0.000
4551.03	113.786	1.995	67.07	40.87	44.928	0.000	24.40		0.33	0.000
4561.11	113.801	1.394	67.05	40.86	45.054	0.000	24.41		0.33	0.000
4571.16	113.783	-1.995	67.08	40.87	45.068	0.000	24.40		0.33	0.000
4581.23	113.761	1.995	67.11	40.89	44.885	0.000	24.41		0.34	0.000
4591.29	113.834	1.995	67.00	40.83	44.964	0.000	24.41		0.34	0.000
4601.36	113.860	1.298	66.96	40.80	45.036	0.000	24.41		0.34	0.000
4611.42	113.849	-1.995	66.98	40.81	45.048	0.000	24.41		0.34	0.000
4621.49	113.802	1.995	67.05	40.86	44.891	0.000	24.41		0.34	0.000
4631.56	113.913	1.995	66.88	40.75	45.015	0.000	24.41		0.34	0.000
4641.63	113.924	-1.995	66.86	40.75	45.102	0.000	24.41		0.34	0.000
4651.69	113.851	-1.947	66.97	40.81	44.949	0.000	24.41		0.34	0.000
4661.76	113.957	-1.995	66.81	40.71	45.067	0.000	24.41		0.34	0.000
4671.83	113.924	-1.995	66.86	40.75	45.069	0.000	24.41		0.34	0.000
4681.90	113.903	1.995	66.90	40.76	44.889	0.000	24.41		0.34	0.000
4691.98	113.979	-1.995	66.78	40.70	45.132	0.000	24.40		0.34	0.000
4702.03	113.935	1.310	66.85	40.73	44.958	0.000	24.40		0.34	0.000
4712.09	113.961	1.995	66.81	40.71	44.941	0.000	24.40		0.34	0.000
4722.17	114.019	-1.995	66.72	40.66	45.154	0.000	24.39		0.34	0.000
4732.25	113.957	1.995	66.81	40.71	44.878	0.000	24.39		0.34	0.000
4742.31	114.002	1.995	66.75	40.67	44.936	0.000	24.38		0.34	0.000
4752.38	114.062	-1.118	66.66	40.62	45.071	0.000	24.38		0.34	0.000
4762.45	113.997	-1.995	66.75	40.68	44.988	0.000	24.39		0.34	0.000
4772.47	114.003	1.995	66.75	40.67	44.899	0.000	24.39		0.34	0.000
4782.55	114.084	0.409	66.62	40.60	45.053	0.000	24.39		0.34	0.000
4792.61	114.076	-1.995	66.64	40.61	45.085	0.000	24.39		0.34	0.000
4802.69	114.083	1.995	66.63	40.60	44.957	0.000	24.39		0.34	0.000
4812.76	114.108	-1.995	66.59	40.58	45.081	0.000	24.39		0.34	0.000
4822.83	114.061	-1.863	66.66	40.62	44.992	0.000	24.39		0.34	0.000
4832.88	114.133	1.995	66.55	40.55	45.004	0.000	24.39		0.34	0.000
4842.95	114.134	-1.995	66.55	40.55	45.133	0.000	24.39		0.34	0.000
4853.03	114.099	1.995	66.60	40.58	44.936	0.000	24.38		0.34	0.000
4863.11	114.189	0.553	66.47	40.50	45.066	0.000	24.39		0.34	0.000
4873.17	114.147	-1.995	66.53	40.54	45.078	0.000	24.38		0.34	0.000
4883.23	114.140	1.995	66.54	40.55	44.857	0.000	24.38		0.34	0.000
4893.31	114.213	1.995	66.43	40.48	45.038	0.000	24.38		0.34	0.000
4903.38	114.204	-1.995	66.44	40.49	45.142	0.000	24.37		0.34	0.000
4913.45	114.171	0.481	66.49	40.52	44.957	0.000	24.37		0.34	0.000
4923.52	114.230	1.995	66.40	40.47	44.944	0.000	24.38		0.34	0.000
4933.59	114.272	-1.502	66.34	40.43	45.068	0.000	24.38		0.34	0.000
4943.66	114.221	-1.995	66.42	40.47	45.095	0.000	24.38		0.34	0.000
4953.73	114.215	1.995	66.43	40.48	44.884	0.000	24.39		0.34	0.000
4963.79	114.306	1.995	66.29	40.40	44.971	0.000	24.39		0.34	0.000
4973.86	114.299	-0.240	66.30	40.40	45.002	0.000	24.39		0.34	0.000
4983.94	114.235	-1.166	66.40	40.46	44.995	0.000	24.40		0.34	0.000
4994.01	114.316	1.995	66.28	40.39	44.894	0.000	24.40		0.34	0.000
5004.09	114.352	1.995	66.22	40.35	45.032	0.000	24.41		0.34	0.000
5014.15	114.320	-1.995	66.27	40.38	45.018	0.000	24.40		0.34	0.000
5024.23	114.327	1.995	66.26	40.38	44.838	0.000	24.40		0.34	0.000
5034.29	114.380	1.995	66.18	40.33	44.970	0.000	24.39		0.34	0.000
5044.33	114.399	-1.995	66.15	40.31	45.194	0.000	24.39		0.34	0.000
5054.39	114.366	-1.995	66.20	40.34	45.002	0.000	24.40		0.34	0.000
5064.45	114.377	1.995	66.18	40.33	44.872	0.000	24.40		0.34	0.000
5074.47	114.451	1.731	66.07	40.26	45.046	0.000	24.39		0.34	0.000
5084.53	114.442	-1.995	66.09	40.27	45.120	0.000	24.39		0.34	0.000
5094.60	114.403	1.995	66.15	40.31	44.956	0.000	24.39		0.34	0.000
5104.66	114.493	-0.721	66.01	40.23	45.110	0.000	24.39		0.35	0.000
5114.71	114.442	-1.995	66.09	40.27	45.088	0.000	24.39		0.35	0.000
5124.79	114.431	1.995	66.10	40.28	44.880	0.000	24.39		0.35	0.000
5134.87	114.476	1.995	66.04	40.24	44.959	0.000	24.39		0.35	0.000
5144.95	114.510	-1.995	65.99	40.21	45.130	0.000	24.39		0.35	0.000
5155.02	114.451	1.995	66.07	40.26	44.875	0.000	24.39		0.35	0.000
5165.10	114.549	1.995	65.93	40.17	45.016	0.000	24.39		0.35	0.000
5175.16	114.553	-1.995	65.92	40.17	45.099	0.000	24.39		0.35	0.000
5185.23	114.516	1.911	65.98	40.20	44.973	0.000	24.39		0.35	0.000
5195.30	114.574	1.370	65.89	40.15	45.021	0.000	24.39		0.35	0.000
5205.38	114.558	-1.995	65.91	40.17	45.081	0.000	24.39		0.35	0.000
5215.45	114.524	0.745	65.96	40.20	44.963	0.000	24.39		0.35	0.000
5225.52	114.590	1.995	65.86	40.14	44.938	0.000	24.39		0.35	0.000
5235.59	114.589	-1.995	65.87	40.14	45.100	0.000	24.39		0.35	0.000
5245.67	114.560	-0.757	65.91	40.16	44.969	0.000	24.39		0.35	0.000
5255.74	114.608	1.995	65.84	40.12	44.941	0.000	24.38		0.35	0.000
5265.81	114.636	-1.995	65.80	40.09	45.163	0.000	24.38		0.35	0.000
5275.87	114.590	-1.995	65.86	40.14	45.003	0.000	24.38		0.35	0.000
5285.94	114.580	1.995	65.88	40.15	44.899	0.000	24.38		0.35	0.000
5296.02	114.657	-1.707	65.76	40.08	45.099	0.000	24.39		0.35	0.000
5306.09	114.586	-1.995	65.87	40.14	45.012	0.000	24.39		0.35	0.000
5316.15	114.604	1.995	65.84	40.12	44.872	0.000	24.39		0.35	0.000
5326.21	114.684	-1.370	65.72	40.05	45.131	0.000	24.39		0.35	0.000
5336.29	114.645	-1.995	65.78	40.09	45.131	0.000	24.39		0.35	0.000
5346.37	114.617	1.995	65.82	40.11	44.857	0.000	24.39		0.35	0.000
5356.42	114.710	-0.445	65.69	40.03	45.068	0.000	24.39		0.35	0.000
5366.47	114.639	-1.995	65.79	40.09	44.978	0.000	24.39		0.35	0.000
5376.53	114.681	1.995	65.73	40.05	44.883	0.000	24.39		0.35	0.000
5386.60	114.731	-1.995	65.65	40.01	45.104	0.000	24.39		0.35	0.000
5396.65	114.675	1.046	65.74	40.06	44.978	0.000	24.39		0.35	0.000
5406.71	114.694	1.995	65.71	40.04	44.910	0.000	24.39		0.35	0.000
5416.77	114.729	-1.995	65.66	40.01	45.098	0.000	24.40		0.35	0.000
5426.83	114.707	0.216	65.69	40.03	44.971	0.000	24.40		0.35	0.000
5436.90	114.772	-1.995	65.59	39.97	45.059	0.000	24.40		0.35	0.000
5446.97	114.707	-1.995	65.69	40.03	45.005	0.000	24.40		0.35	0.000
5457.01	114.729	1.995	65.66	40.01	44.920	0.000	24.40		0.35	0.000
5467.09	114.790	-1.995	65.56	39.95	45.123	0.000	24.39		0.35	0.000
5477.15	114.715	-1.971	65.68	40.02	45.001	0.000	24.39		0.35	0.000
5487.23	114.768	1.995	65.60	39.97	44.947	0.000	24.39		0.35	0.000
5497.29	114.801	-1.995	65.55	39.94	45.203	0.000	24.40		0.35	0.000
5507.37	114.739	-1.995	65.64	40.00	44.934	0.000	24.40		0.35	0.000
5517.42	114.813	1.995	65.53	39.93	45.014	0.000	24.39		0.35	0.000
5527.49	114.776	-1.995	65.59	39.97	45.063	0.000	24.39		0.35	0.000
5537.57	114.748	1.995	65.63	39.99	44.911	0.000	24.39		0.35	0.000
5547.64	114.827	-1.779	65.51	39.92	45.058	0.000	24.39		0.35	0.000
5557.71	114.753	-0.805	65.62	39.99	44.981	0.000	24.39		0.35	0.000
5567.79	114.808	1.995	65.54	39.94	44.992	0.000	24.39		0.35	0.000
5577.85	114.788	-1.995	65.57	39.96	45.054	0.000	24.39		0.35	0.000
5587.91	114.785	1.995	65.57	39.96	44.933	0.000	24.39		0.35	0.000
5597.97	114.829	-1.995	65.51	39.92	45.111	0.000	24.39		0.35	0.000
5608.05	114.776	0.673	65.59	39.97	44.936	0.000	24.39		0.35	0.000
5618.12	114.840	1.935	65.49	39.91	45.039	0.000	24.39		0.35	0.000
5628.18	114.789	-1.995	65.57	39.95	44.985	0.000	24.39		0.35	0.000
5638.26	114.829	1.995	65.51	39.92	44.983	0.000	24.39		0.35	0.000
5648.33	114.788	-1.995	65.57	39.96	45.003	0.000	24.38		0.35	0.000
5658.39	114.827	1.995	65.51	39.92	44.948	0.000	24.37		0.35	0.000
5668.44	114.834	-1.995	65.50	39.91	45.037	0.000	24.37		0.35	0.000
5678.50	114.792	1.106	65.56	39.95	44.930	0.000	24.37		0.35	0.000
5688.58	114.875	-0.781	65.44	39.88	45.079	0.000	24.37		0.35	0.000
5698.65	114.820	-1.995	65.52	39.93	45.021	0.000	24.38		0.35	0.000
5708.72	114.833	1.995	65.50	39.91	44.857	0.000	24.38		0.35	0.000
5718.76	114.857	-1.238	65.46	39.89	45.023	0.000	24.38		0.35	0.000
5728.84	114.829	1.671	65.51	39.92	44.949	0.000	24.38		0.35	0.000
5738.92	114.915	-1.995	65.38	39.84	45.124	0.000	24.39		0.35	0.000
5749.00	114.843	-1.995	65.49	39.91	45.000	0.000	24.39		0.35	0.000
5759.06	114.895	1.995	65.41	39.86	44.990	0.000	24.38		0.35	0.000
5769.12	114.918	-1.995	65.37	39.84	45.092	0.000	24.39		0.35	0.000
5779.18	114.870	1.995	65.45	39.88	44.988	0.000	24.39		0.35	0.000
5789.26	114.942	-1.466	65.34	39.81	45.078	0.000	24.39		0.35	0.000
5799.33	114.868	0.998	65.45	39.88	44.903	0.000	24.39		0.35	0.000
5809.40	114.957	-1.250	65.31	39.80	45.066	0.000	24.40		0.35	0.000
5819.48	114.884	-1.863	65.42	39.87	44.945	0.000	24.40		0.35	0.000
5829.55	114.898	1.995	65.40	39.85	44.843	0.000	24.39		0.35	0.000
5839.61	114.948	-1.995	65.33	39.81	45.093	0.000	24.39		0.35	0.000
5849.68	114.898	1.995	65.40	39.85	44.974	0.000	24.40		0.35	0.000
5859.75	114.974	-1.995	65.29	39.79	45.054	0.000	24.40		0.35	0.000
5869.83	114.899	0.673	65.40	39.85	44.939	0.000	24.40		0.35	0.000
5879.89	114.954	1.995	65.32	39.80	44.942	0.000	24.40		0.35	0.000
5889.97	114.954	-1.995	65.32	39.80	45.059	0.000	24.40		0.35	0.000
5900.03	114.934	1.887	65.35	39.82	44.945	0.000	24.41		0.35	0.000
5910.09	114.975	-1.995	65.29	39.78	45.080	0.000	24.41		0.36	0.000
5920.17	114.925	1.995	65.36	39.83	44.871	0.000	24.41		0.36	0.000
5930.24	115.008	-0.553	65.24	39.75	45.091	0.000	24.41		0.36	0.000
5940.32	114.942	-1.995	65.34	39.81	45.051	0.000	24.41		0.36	0.000
5950.36	114.920	1.995	65.37	39.83	44.910	0.000	24.41		0.36	0.000
5960.41	115.016	-1.971	65.23	39.75	45.042	0.000	24.41		0.36	0.000
5970.46	114.967	0.096	65.30	39.79	44.990	0.000	24.41		0.36	0.000
5980.52	115.020	1.995	65.22	39.74	45.008	0.000	24.41		0.36	0.000
5990.57	114.998	-1.995	65.25	39.76	45.094	0.000	24.41		0.36	0.000
6000.64	114.949	1.995	65.33	39.81	44.856	0.000	24.40		0.36	0.000
6010.70	115.045	1.430	65.18	39.72	45.056	0.000	24.40		0.36	0.000
6020.76	114.990	-1.995	65.26	39.77	44.967	0.000	24.39		0.36	0.000
6030.81	115.052	1.995	65.17	39.71	44.977	0.000	24.39		0.36	0.000
6040.88	115.053	-1.995	65.17	39.71	45.098	0.000	24.39		0.36	0.000
6050.94	115.008	1.995	65.24	39.75	44.948	0.000	24.39		0.36	0.000
6061.01	115.049	1.995	65.18	39.72	44.982	0.000	24.39		0.36	0.000
6071.07	115.063	-1.995	65.15	39.70	45.104	0.000	24.39		0.36	0.000
6081.12	115.004	1.767	65.24	39.76	44.944	0.000	24.39		0.36	0.000
6091.20	115.072	-1.995	65.14	39.70	45.039	0.000	24.39		0.36	0.000
6101.27	115.012	-1.070	65.23	39.75	44.970	0.000	24.39		0.36	0.000
6111.35	115.049	1.995	65.18	39.72	44.923	0.000	24.39		0.36	0.000
6121.41	115.081	-1.995	65.13	39.69	45.109	0.000	24.39		0.36	0.000
6131.47	115.025	0.469	65.21	39.74	44.925	0.000	24.39		0.36	0.000
6141.55	115.104	1.995	65.09	39.67	44.943	0.000	24.39		0.36	0.000
6151.62	115.142	-0.361	65.04	39.63	45.010	0.000	24.39		0.36	0.000
6161.70	115.089	-1.995	65.12	39.68	45.070	0.000	24.39		0.36	0.000
6171.76	115.116	1.995	65.08	39.66	44.969	0.000	24.39		0.36	0.000
6181.84	115.176	1.995	64.99	39.60	45.001	0.000	24.38		0.36	0.000
6191.89	115.167	-1.995	65.00	39.61	45.063	0.000	24.38		0.36	0.000
6201.97	115.135	1.995	65.05	39.64	44.879	0.000	24.38		0.36	0.000
6212.04	115.235	-1.995	64.90	39.55	45.206	0.000	24.39		0.36	0.000
6222.10	115.188	-1.995	64.97	39.59	45.097	0.000	24.39		0.36	0.000
6232.17	115.194	1.995	64.96	39.58	44.902	0.000	24.39		0.36	0.000
6242.25	115.252	-1.430	64.87	39.53	45.115	0.000	24.39		0.36	0.000
6252.32	115.213	-1.995	64.93	39.57	45.085	0.000	24.39		0.36	0.000
6262.37	115.209	1.995	64.94	39.57	44.847	0.000	24.39		0.36	0.000
6272.40	115.293	-1.995	64.81	39.49	45.151	0.000	24.40		0.36	0.000
6282.46	115.247	-1.995	64.88	39.54	45.087	0.000	24.40		0.36	0.000
6292.53	115.235	1.995	64.90	39.55	44.872	0.000	24.40		0.36	0.000
6302.57	115.302	-1.995	64.80	39.49	45.022	0.000	24.40		0.36	0.000
6312.64	115.254	0.962	64.87	39.53	44.944	0.000	24.40		0.36	0.000
6322.72	115.333	-1.166	64.75	39.46	45.075	0.000	24.40		0.36	0.000
6332.77	115.283	-1.995	64.83	39.50	45.049	0.000	24.41		0.36	0.000
6342.85	115.288	1.995	64.82	39.50	44.916	0.000	24.41		0.36	0.000
6352.91	115.353	1.995	64.72	39.44	44.981	0.000	24.42		0.36	0.000
6362.97	115.361	-1.995	64.71	39.43	45.084	0.000	24.41		0.36	0.000
6373.03	115.320	1.995	64.77	39.47	44.965	0.000	24.42		0.36	0.000
6383.11	115.399	1.707	64.65	39.40	45.010	0.000	24.41		0.36	0.000
6393.17	115.395	-1.358	64.66	39.40	45.044	0.000	24.41		0.36	0.000
6403.25	115.345	0.228	64.73	39.45	45.009	0.000	24.40		0.36	0.000
6413.32	115.403	1.995	64.65	39.39	44.976	0.000	24.38		0.36	0.000
6423.40	115.447	-1.995	64.58	39.35	45.082	0.000	24.38		0.36	0.000
6433.44	115.371	0.709	64.69	39.42	44.951	0.000	24.39		0.36	0.000
6443.52	115.422	1.995	64.62	39.38	44.894	0.000	24.39		0.36	0.000
6453.60	115.471	-1.995	64.54	39.33	45.121	0.000	24.39		0.36	0.000
6463.67	115.421	-1.442	64.62	39.38	45.015	0.000	24.39		0.36	0.000
6473.72	115.440	1.995	64.59	39.36	44.874	0.000	24.40		0.36	0.000
6483.78	115.520	-0.337	64.47	39.29	45.089	0.000	24.39		0.36	0.000
6493.84	115.518	0.108	64.47	39.29	45.003	0.000	24.38		0.36	0.000
6503.92	115.470	-1.995	64.55	39.33	45.014	0.000	24.38		0.36	0.000
6513.99	115.503	1.887	64.50	39.30	44.944	0.000	24.39		0.36	0.000
6524.07	115.571	1.202	64.39	39.24	45.027	0.000	24.39		0.36	0.000
6534.15	115.545	-1.971	64.43	39.26	44.997	0.000	24.39		0.36	0.000
6544.22	115.494	0.481	64.51	39.31	44.960	0.000	24.40		0.36	0.000
6554.27	115.562	1.995	64.41	39.25	44.923	0.000	24.40		0.36	0.000
6564.35	115.612	-1.995	64.33	39.20	45.032	0.000	24.40		0.36	0.000
6574.36	115.552	-0.685	64.42	39.26	44.976	0.000	24.40		0.36	0.000
6584.43	115.576	1.995	64.39	39.23	44.901	0.000	24.40		0.36	0.000
6594.51	115.653	-1.995	64.27	39.16	45.133	0.000	24.40		0.36	0.000
6604.57	115.577	-1.995	64.38	39.23	44.960	0.000	24.40		0.36	0.000
6614.62	115.659	1.995	64.26	39.16	44.931	0.000	24.40		0.36	0.000
6624.70	115.547	1.995	64.43	39.26	44.917	0.000	24.40		0.36	0.000
6634.76	115.622	1.995	64.32	39.19	44.894	0.000	24.40		0.36	0.000
6644.83	115.689	-1.995	64.22	39.13	45.139	0.000	24.40		0.36	0.000
6654.91	115.621	-1.995	64.32	39.19	44.971	0.000	24.41		0.36	0.000
6664.96	115.662	1.995	64.26	39.16	44.861	0.000	24.41		0.36	0.000
6675.00	115.747	-1.995	64.13	39.08	45.146	0.000	24.41		0.36	0.000
6685.06	115.708	-1.995	64.19	39.11	45.051	0.000	24.40		0.36	0.000
6695.14	115.689	1.995	64.22	39.13	44.877	0.000	24.41		0.36	0.000
6705.21	115.768	-1.995	64.10	39.06	45.156	0.000	24.41		0.36	0.000
6715.27	115.700	0.433	64.20	39.12	44.960	0.000	24.41		0.36	0.000
6725.33	115.767	1.995	64.10	39.06	44.995	0.000	24.41		0.36	0.000
6735.39	115.770	-1.995	64.10	39.06	45.110	0.000	24.41		0.36	0.000
6745.47	115.697	-0.192	64.21	39.12	44.942	0.000	24.41		0.36	0.000
6755.54	115.738	1.995	64.14	39.09	44.872	0.000	24.41		0.36	0.000
6765.62	115.776	-1.995	64.09	39.05	45.064	0.000	24.41		0.36	0.000
6775.70	115.726	0.601	64.16	39.10	44.947	0.000	24.41		0.36	0.000
6785.77	115.798	1.995	64.05	39.03	44.961	0.000	24.41		0.36	0.000
6795.82	115.820	-1.995	64.02	39.01	45.103	0.000	24.41		0.36	0.000
6805.90	115.757	-1.995	64.11	39.07	44.974	0.000	24.41		0.37	0.000
6815.97	115.759	1.995	64.11	39.07	44.861	0.000	24.42		0.37	0.000
6826.04	115.858	1.406	63.96	38.98	45.029	0.000	24.42		0.37	0.000
6836.11	115.843	-0.841	63.99	38.99	45.024	0.000	24.41		0.37	0.000
6846.15	115.842	-1.274	63.99	38.99	44.998	0.000	24.41		0.37	0.000
6856.21	115.875	0.325	63.94	38.96	45.027	0.000	24.41		0.37	0.000
6866.26	115.852	-1.995	63.97	38.98	45.114	0.000	24.41		0.37	0.000
6876.33	115.788	1.202	64.07	39.04	44.964	0.000	24.41		0.37	0.000
6886.39	115.865	0.433	63.95	38.97	45.002	0.000	24.41		0.37	0.000
6896.45	115.867	-1.995	63.95	38.97	45.091	0.000	24.41		0.37	0.000
6906.52	115.849	1.995	63.98	38.99	44.904	0.000	24.41		0.37	0.000
6916.59	115.884	1.995	63.92	38.95	44.963	0.000	24.41		0.37	0.000
6926.67	115.886	-1.995	63.92	38.95	45.078	0.000	24.41		0.37	0.000
6936.74	115.877	1.370	63.93	38.96	44.998	0.000	24.40		0.37	0.000
6946.82	115.903	-1.995	63.90	38.94	45.075	0.000	24.39		0.37	0.000
6956.89	115.834	1.971	64.00	39.00	44.953	0.000	24.39		0.37	0.000
6966.94	115.909	-0.096	63.89	38.93	45.046	0.000	24.40		0.37	0.000
6976.97	115.848	-1.995	63.98	38.99	45.019	0.000	24.40		0.37	0.000
6987.05	115.847	0.913	63.98	38.99	44.928	0.000	24.40		0.37	0.000
6997.10	115.858	1.995	63.96	38.98	44.941	0.000	24.40		0.37	0.000
7007.17	115.898	-0.962	63.90	38.94	45.074	0.000	24.40		0.37	0.000
7017.25	115.872	-1.995	63.94	38.96	45.022	0.000	24.40		0.37	0.000
7027.30	115.849	1.995	63.98	38.99	44.926	0.000	24.40		0.37	0.000
7037.35	115.875	1.995	63.94	38.96	44.962	0.000	24.40		0.37	0.000
7047.42	115.880	-1.995	63.93	38.96	45.099	0.000	24.40		0.37	0.000
7057.50	115.849	-0.288	63.98	38.99	44.968	0.000	24.41		0.37	0.000
7067.57	115.886	0.757	63.92	38.95	45.018	0.000	24.41		0.37	0.000
7077.62	115.906	-1.995	63.89	38.93	45.049	0.000	24.41		0.37	0.000
7087.70	115.838	1.995	63.99	39.00	44.938	0.000	24.41		0.37	0.000
7097.77	115.924	-1.058	63.86	38.92	45.118	0.000	24.41		0.37	0.000
7107.85	115.874	-1.995	63.94	38.96	45.018	0.000	24.42		0.37	0.000
7117.90	115.875	-1.995	63.94	38.96	45.017	0.000	24.42		0.37	0.000
7127.98	115.683	1.526	64.23	39.14	44.948	0.000	24.42		0.37	0.000
7138.06	115.876	-1.995	63.94	38.96	45.036	0.000	24.42		0.37	0.000
7148.12	115.857	1.995	63.96	38.98	44.958	0.000	24.42		0.37	0.000
7158.18	115.897	-0.349	63.91	38.94	45.031	0.000	24.42		0.37	0.000
7168.23	115.854	-1.334	63.97	38.98	44.952	0.000	24.42		0.37	0.000
7178.31	115.849	1.995	63.98	38.99	44.949	0.000	24.42		0.37	0.000
7188.36	115.884	1.995	63.92	38.95	44.981	0.000	24.42		0.37	0.000
7198.42	115.899	-1.995	63.90	38.94	45.055	0.000	24.42		0.37	0.000
7208.48	115.853	1.130	63.97	38.98	44.929	0.000	24.41		0.37	0.000
7218.54	115.929	0.505	63.86	38.91	45.012	0.000	24.41		0.37	0.000
7228.62	115.875	-0.084	63.94	38.96	44.960	0.000	24.41		0.37	0.000
7238.70	115.857	0.048	63.96	38.98	44.984	0.000	24.42		0.37	0.000
7248.77	115.895	-1.226	63.91	38.94	44.983	0.000	24.42		0.37	0.000
7258.82	115.894	0.325	63.91	38.94	44.969	0.000	24.42		0.37	0.000
7268.89	115.881	-1.995	63.93	38.96	45.002	0.000	24.42		0.37	0.000
7278.96	115.865	1.995	63.95	38.97	44.973	0.000	24.42		0.37	0.000
7289.01	115.927	-1.995	63.86	38.91	45.039	0.000	24.42		0.37	0.000
7299.07	115.865	0.793	63.95	38.97	44.914	0.000	24.42		0.37	0.000
7309.12	115.893	1.983	63.91	38.95	44.965	0.000	24.42		0.37	0.000
7319.20	115.942	-1.995	63.84	38.90	45.079	0.000	24.42		0.37	0.000
7329.27	115.866	0.613	63.95	38.97	44.976	0.000	24.41		0.37	0.000
7339.32	115.942	0.649	63.84	38.90	45.013	0.000	24.41		0.37	0.000
7349.38	115.912	-1.995	63.88	38.93	45.093	0.000	24.41		0.37	0.000
7359.44	115.924	1.995	63.86	38.92	45.024	0.000	24.40		0.37	0.000
7369.52	115.879	-1.995	63.93	38.96	44.990	0.000	24.40		0.37	0.000
7379.58	115.906	1.995	63.89	38.93	44.944	0.000	24.40		0.37	0.000
7389.65	115.924	-1.466	63.86	38.92	45.011	0.000	24.40		0.37	0.000
7399.70	115.897	1.995	63.91	38.94	44.997	0.000	24.40		0.37	0.000
7409.78	115.956	-1.995	63.82	38.89	45.129	0.000	24.41		0.37	0.000
7419.86	115.906	1.322	63.89	38.93	44.979	0.000	24.40		0.37	0.000
7429.92	115.945	-1.995	63.83	38.90	45.107	0.000	24.40		0.37	0.000
7439.98	115.877	-0.349	63.93	38.96	44.952	0.000	24.40		0.37	0.000
7450.05	115.936	1.995	63.85	38.91	44.962	0.000	24.40		0.37	0.000
7460.12	115.893	-1.995	63.91	38.95	45.024	0.000	24.41		0.37	0.000
7470.16	115.903	1.995	63.90	38.94	44.954	0.000	24.41		0.37	0.000
7480.23	115.888	-0.733	63.92	38.95	44.970	0.000	24.41		0.37	0.000
7490.31	115.925	1.971	63.86	38.92	44.951	0.000	24.41		0.37	0.000
7500.36	115.921	1.995	63.87	38.92	44.976	0.000	24.41		0.37	0.000
7510.41	115.912	-1.995	63.88	38.93	45.004	0.000	24.41		0.37	0.000
7520.46	115.915	-0.120	63.88	38.93	44.966	0.000	24.41		0.37	0.000
7530.52	115.903	1.995	63.90	38.94	44.984	0.000	24.41		0.37	0.000
7540.59	115.925	1.779	63.86	38.92	44.995	0.000	24.41		0.37	0.000
7550.66	115.935	-1.791	63.85	38.91	45.065	0.000	24.41		0.37	0.000
7560.73	115.903	-1.995	63.90	38.94	44.977	0.000	24.42		0.37	0.000
7570.80	115.894	1.995	63.91	38.94	44.928	0.000	24.42		0.37	0.000
7580.85	115.976	-1.995	63.79	38.87	45.177	0.000	24.42		0.37	0.000
7590.92	115.759	-0.805	64.11	39.07	44.975	0.000	24.43		0.37	0.000
7601.00	115.745	1.322	64.13	39.08	44.973	0.000	24.42		0.37	0.000
7611.07	115.892	1.995	63.91	38.95	44.964	0.000	24.42		0.37	0.000
7621.14	115.913	1.827	63.88	38.93	44.981	0.000	24.42		0.37	0.000
7631.18	115.943	1.106	63.84	38.90	45.041	0.000	24.42		0.37	0.000
7641.25	115.956	-1.995	63.82	38.89	45.126	0.000	24.42		0.37	0.000
7651.32	115.931	-0.661	63.85	38.91	44.991	0.000	24.42		0.37	0.000
7661.39	115.945	1.719	63.83	38.90	45.018	0.000	24.43		0.37	0.000
7671.45	115.924	-0.517	63.86	38.92	45.044	0.000	24.43		0.37	0.000
7681.53	115.900	-1.995	63.90	38.94	45.026	0.000	24.43		0.37	0.000
7691.60	115.881	-0.421	63.93	38.96	44.958	0.000	24.42		0.37	0.000
7701.64	115.922	1.010	63.87	38.92	44.985	0.000	24.42		0.37	0.000
7711.71	115.907	-1.466	63.89	38.93	45.040	0.000	24.42		0.37	0.000
7721.77	115.893	0.204	63.91	38.95	44.975	0.000	24.42		0.37	0.000
7731.85	115.874	1.671	63.94	38.96	45.005	0.000	24.41		0.37	0.000
7741.93	115.883	1.466	63.93	38.95	44.966	0.000	24.40		0.37	0.000
7751.99	115.888	0.300	63.92	38.95	45.027	0.000	24.39		0.37	0.000
7762.05	115.888	0.649	63.92	38.95	44.978	0.000	24.39		0.37	0.000
7772.10	115.948	-1.995	63.83	38.90	45.115	0.000	24.40		0.37	0.000
7782.17	115.880	-1.022	63.93	38.96	44.980	0.000	24.40		0.37	0.000
7792.21	115.915	0.613	63.88	38.93	44.995	0.000	24.41		0.37	0.000
7802.27	115.942	-1.995	63.84	38.90	45.043	0.000	24.41		0.37	0.000
7812.35	115.900	0.216	63.90	38.94	44.995	0.000	24.41		0.37	0.000
7822.42	115.930	1.611	63.86	38.91	44.990	0.000	24.41		0.37	0.000
7832.48	115.926	0.012	63.86	38.92	44.995	0.000	24.41		0.37	0.000
7842.55	115.911	1.118	63.88	38.93	44.957	0.000	24.41		0.37	0.000
7852.62	115.952	-0.865	63.82	38.89	45.022	0.000	24.41		0.37	0.000
7862.68	115.890	1.382	63.91	38.95	44.987	0.000	24.41		0.37	0.000
7872.74	115.926	0.685	63.86	38.92	45.012	0.000	24.40		0.37	0.000
7882.80	115.954	-0.409	63.82	38.89	45.044	0.000	24.38		0.37	0.000
7892.88	115.904	-0.361	63.89	38.93	44.954	0.000	24.35		0.37	0.000
7902.96	115.970	-0.108	63.80	38.88	45.094	0.000	24.34		0.37	0.000
7913.02	115.927	-0.577	63.86	38.91	45.038	0.000	24.36		0.37	0.000
7923.10	115.950	1.202	63.82	38.89	44.977	0.000	24.37		0.37	0.000
7933.17	115.921	-1.995	63.87	38.92	45.031	0.000	24.37		0.37	0.000
7943.22	115.894	0.457	63.91	38.94	44.994	0.000	24.38		0.37	0.000
7953.28	115.872	0.192	63.94	38.96	44.967	0.000	24.39		0.37	0.000
7963.35	115.884	1.106	63.92	38.95	44.961	0.000	24.39		0.37	0.000
7973.42	115.924	1.995	63.86	38.92	44.969	0.000	24.40		0.37	0.000
7983.49	115.934	0.649	63.85	38.91	44.983	0.000	24.40		0.38	0.000
7993.56	115.947	-1.995	63.83	38.90	45.108	0.000	24.40		0.38	0.000
8003.64	115.902	-1.995	63.90	38.94	45.011	0.000	24.40		0.38	0.000
8013.71	115.889	0.661	63.92	38.95	44.969	0.000	24.40		0.38	0.000
8023.77	115.885	1.310	63.92	38.95	44.991	0.000	24.40		0.38	0.000
8033.85	115.875	0.913	63.94	38.96	45.011	0.000	24.41		0.38	0.000
8043.92	115.934	0.565	63.85	38.91	44.994	0.000	24.40		0.38	0.000
8054.00	115.958	-1.995	63.81	38.89	45.081	0.000	24.40		0.38	0.000
8064.05	115.902	1.995	63.90	38.94	44.971	0.000	24.40		0.38	0.000
8074.09	115.927	1.995	63.86	38.91	44.925	0.000	24.41		0.38	0.000
8084.15	115.947	-1.995	63.83	38.90	45.044	0.000	24.41		0.38	0.000
8094.23	115.935	1.106	63.85	38.91	44.992	0.000	24.40		0.38	0.000
8104.30	115.979	-1.719	63.78	38.87	45.112	0.000	24.40		0.38	0.000
8114.34	115.904	0.757	63.89	38.93	44.992	0.000	24.40		0.38	0.000
8124.40	115.962	1.262	63.81	38.88	45.001	0.000	24.40		0.38	0.000
8134.48	115.909	-0.240	63.89	38.93	44.963	0.000	24.40		0.38	0.000
8144.56	115.947	1.995	63.83	38.90	44.971	0.000	24.40		0.38	0.000
8154.63	115.947	-1.995	63.83	38.90	45.101	0.000	24.40		0.38	0.000
8164.66	115.904	0.300	63.89	38.93	44.961	0.000	24.41		0.38	0.000
8174.74	115.970	1.226	63.80	38.88	44.996	0.000	24.40		0.38	0.000
8184.81	115.977	-1.995	63.78	38.87	45.088	0.000	24.40		0.38	0.000
8194.87	115.920	0.853	63.87	38.92	44.959	0.000	24.41		0.38	0.000
8204.95	115.986	-1.322	63.77	38.86	45.038	0.000	24.41		0.38	0.000
8215.02	115.924	-0.288	63.86	38.92	44.944	0.000	24.41		0.38	0.000
8225.10	115.921	1.995	63.87	38.92	44.967	0.000	24.41		0.38	0.000
8235.18	115.948	0.132	63.83	38.90	44.985	0.000	24.41		0.38	0.000
8245.25	115.984	-1.995	63.77	38.86	45.113	0.000	24.41		0.38	0.000
8255.32	115.929	-1.995	63.86	38.91	44.980	0.000	24.41		0.38	0.000
8265.39	115.899	1.502	63.90	38.94	44.975	0.000	24.41		0.38	0.000
8275.45	115.918	0.877	63.87	38.92	45.021	0.000	24.41		0.38	0.000
8285.52	115.892	1.106	63.91	38.95	44.998	0.000	24.41		0.38	0.000
8295.59	115.913	-1.406	63.88	38.93	44.983	0.000	24.41		0.38	0.000
8305.64	115.902	0.613	63.90	38.94	44.972	0.000	24.41		0.38	0.000
8315.71	115.894	0.469	63.91	38.94	44.975	0.000	24.41		0.38	0.000
8325.79	115.934	1.995	63.85	38.91	44.992	0.000	24.41		0.38	0.000
8335.87	115.944	1.995	63.83	38.90	44.988	0.000	24.41		0.38	0.000
8345.92	115.968	-1.995	63.80	38.88	45.118	0.000	24.41		0.38	0.000
8355.98	115.936	-1.995	63.85	38.91	45.044	0.000	24.40		0.38	0.000
8366.04	115.956	-1.995	63.82	38.89	45.041	0.000	24.40		0.38	0.000
8376.07	115.918	-0.493	63.87	38.92	45.004	0.000	24.40		0.38	0.000
8386.14	115.880	-0.529	63.93	38.96	44.998	0.000	24.39		0.38	0.000
8396.22	115.833	-1.623	64.00	39.00	45.032	0.000	24.39		0.38	0.000
8406.29	115.812	-1.995	64.03	39.02	45.050	0.000	24.39		0.38	0.000
8416.35	115.847	0.240	63.98	38.99	45.012	0.000	24.40		0.38	0.000
8426.42	115.938	-1.995	63.84	38.90	44.998	0.000	24.40		0.38	0.000
8436.49	115.870	1.142	63.95	38.97	44.978	0.000	24.41		0.38	0.000
8446.57	115.945	-1.791	63.83	38.90	45.037	0.000	24.41		0.38	0.000
8456.64	115.950	-0.757	63.82	38.89	45.040	0.000	24.41		0.38	0.000
8466.71	115.948	1.779	63.83	38.90	44.992	0.000	24.41		0.38	0.000
8476.76	115.966	1.022	63.80	38.88	45.003	0.000	24.41		0.38	0.000
8486.82	115.953	1.995	63.82	38.89	44.942	0.000	24.41		0.38	0.000
8496.90	115.956	-0.204	63.82	38.89	45.064	0.000	24.41		0.38	0.000
8506.97	115.966	-0.036	63.80	38.88	45.050	0.000	24.41		0.38	0.000
8517.05	115.917	-1.563	63.87	38.92	45.025	0.000	24.42		0.38	0.000
8527.11	115.911	0.541	63.88	38.93	45.005	0.000	24.42		0.38	0.000
8537.19	115.974	-0.433	63.79	38.87	45.037	0.000	24.42		0.38	0.000
8547.26	115.943	-0.409	63.84	38.90	44.978	0.000	24.42		0.38	0.000
8557.34	115.935	1.995	63.85	38.91	44.959	0.000	24.42		0.38	0.000
8567.41	115.940	-1.995	63.84	38.90	45.011	0.000	24.41		0.38	0.000
8577.48	115.943	-0.685	63.84	38.90	44.954	0.000	24.42		0.38	0.000
8587.56	115.952	-0.553	63.82	38.89	45.026	0.000	24.42		0.38	0.000
8597.61	115.939	1.142	63.84	38.90	45.005	0.000	24.41		0.38	0.000
8607.67	115.889	-0.601	63.92	38.95	45.021	0.000	24.41		0.38	0.000
8617.73	115.871	1.995	63.94	38.97	44.975	0.000	24.41		0.38	0.000
8627.81	115.975	-0.036	63.79	38.87	45.034	0.000	24.41		0.38	0.000
8637.89	115.943	-1.995	63.84	38.90	45.029	0.000	24.41		0.38	0.000
8647.95	115.940	-1.995	63.84	38.90	45.019	0.000	24.42		0.38	0.000
8658.03	115.921	-0.553	63.87	38.92	44.967	0.000	24.42		0.38	0.000
8668.05	115.935	1.767	63.85	38.91	44.961	0.000	24.41		0.38	0.000
8678.11	115.945	0.661	63.83	38.90	45.011	0.000	24.41		0.38	0.000
8688.19	115.950	1.082	63.82	38.89	44.974	0.000	24.41		0.38	0.000
8698.27	115.970	-0.397	63.80	38.88	45.002	0.000	24.41		0.38	0.000
8708.32	115.988	-0.337	63.77	38.86	45.066	0.000	24.41		0.38	0.000
8718.39	115.935	-0.673	63.85	38.91	45.035	0.000	24.41		0.38	0.000
8728.45	115.938	-1.923	63.84	38.90	44.977	0.000	24.40		0.38	0.000
8738.53	115.917	1.022	63.87	38.92	44.979	0.000	24.40		0.38	0.000
8748.59	115.920	-0.445	63.87	38.92	44.992	0.000	24.40		0.38	0.000
8758.66	115.942	0.697	63.84	38.90	44.971	0.000	24.39		0.38	0.000
8768.74	115.994	-1.995	63.76	38.85	45.053	0.000	24.40		0.38	0.000
8778.81	115.956	-1.995	63.82	38.89	45.032	0.000	24.39		0.38	0.000
8788.88	115.925	1.995	63.86	38.92	44.935	0.000	24.39		0.38	0.000
8798.95	115.968	0.060	63.80	38.88	45.004	0.000	24.39		0.38	0.000
8809.02	115.920	0.733	63.87	38.92	45.008	0.000	24.40		0.38	0.000
8819.10	115.985	-1.995	63.77	38.86	45.019	0.000	24.40		0.38	0.000
8829.17	115.942	-1.995	63.84	38.90	44.981	0.000	24.40		0.38	0.000
8839.25	115.933	-0.192	63.85	38.91	44.981	0.000	24.40		0.38	0.000
8849.31	115.954	0.950	63.82	38.89	44.949	0.000	24.40		0.38	0.000
8859.38	115.913	1.370	63.88	38.93	45.011	0.000	24.40		0.38	0.000
8869.45	115.933	-1.154	63.85	38.91	45.004	0.000	24.40		0.38	0.000
8879.53	115.952	1.526	63.82	38.89	44.980	0.000	24.40		0.38	0.000
8889.60	116.004	-1.190	63.74	38.84	45.100	0.000	24.39		0.38	0.000
8899.66	115.965	0.793	63.80	38.88	44.993	0.000	24.39		0.38	0.000
8909.69	115.963	1.623	63.81	38.88	44.952	0.000	24.39		0.38	0.000
8919.77	115.959	0.409	63.81	38.88	44.988	0.000	24.38		0.38	0.000
8929.83	115.945	1.094	63.83	38.90	44.943	0.000	24.39		0.38	0.000
8939.88	115.959	1.995	63.81	38.88	44.989	0.000	24.39		0.38	0.000
8949.95	115.945	-1.394	63.83	38.90	45.020	0.000	24.40		0.38	0.000
8960.03	115.957	1.815	63.81	38.89	44.951	0.000	24.40		0.38	0.000
8970.04	115.817	-1.995	64.02	39.01	45.044	0.000	24.40		0.38	0.000
8980.12	115.974	-0.024	63.79	38.87	45.014	0.000	24.40		0.38	0.000
8990.19	115.920	0.409	63.87	38.92	45.009	0.000	24.40		0.38	0.000
9000.27	115.970	0.072	63.80	38.88	45.030	0.000	24.40		0.38	0.000
9010.34	115.944	-0.192	63.83	38.90	45.017	0.000	24.39		0.38	0.000
9020.42	115.912	1.382	63.88	38.93	44.965	0.000	24.39		0.38	0.000
9030.47	115.931	0.853	63.85	38.91	44.970	0.000	24.39		0.38	0.000
9040.54	115.931	1.514	63.85	38.91	44.952	0.000	24.39		0.38	0.000
9050.62	115.958	0.901	63.81	38.89	44.944	0.000	24.39		0.38	0.000
9060.70	115.983	-0.300	63.78	38.86	44.997	0.000	24.39		0.38	0.000
9070.78	115.976	-1.106	63.79	38.87	45.002	0.000	24.39		0.38	0.000
9080.84	115.967	-1.995	63.80	38.88	45.017	0.000	24.39		0.38	0.000
9090.92	115.948	1.779	63.83	38.90	44.986	0.000	24.39		0.38	0.000
9100.99	115.948	0.913	63.83	38.90	44.962	0.000	24.39		0.38	0.000
9111.06	115.963	1.707	63.81	38.88	44.977	0.000	24.39		0.38	0.000
9121.10	115.994	-0.409	63.76	38.85	45.039	0.000	24.39		0.38	0.000
9131.18	116.002	-0.096	63.75	38.85	45.036	0.000	24.39		0.38	0.000
9141.26	115.957	-0.132	63.81	38.89	44.992	0.000	24.39		0.38	0.000
9151.32	116.007	-1.995	63.74	38.84	45.030	0.000	24.39		0.38	0.000
9161.39	115.952	-1.995	63.82	38.89	44.999	0.000	24.39		0.38	0.000
9171.45	115.986	-1.995	63.77	38.86	45.039	0.000	24.39		0.38	0.000
9181.53	115.959	-1.995	63.81	38.88	44.998	0.000	24.39		0.38	0.000
9191.60	115.942	1.599	63.84	38.90	45.030	0.000	24.39		0.38	0.000
9201.67	115.970	0.264	63.80	38.88	45.009	0.000	24.40		0.38	0.000
9211.74	115.943	0.601	63.84	38.90	45.005	0.000	24.39		0.38	0.000
9221.80	115.986	1.851	63.77	38.86	44.954	0.000	24.39		0.38	0.000
9231.87	116.011	-0.517	63.73	38.84	45.029	0.000	24.40		0.38	0.000
9241.95	115.944	0.108	63.83	38.90	44.963	0.000	24.40		0.38	0.000
9252.03	115.962	0.697	63.81	38.88	44.992	0.000	24.40		0.38	0.000
9262.10	116.000	-1.995	63.75	38.85	45.112	0.000	24.40		0.38	0.000
9272.14	115.963	-1.178	63.81	38.88	44.958	0.000	24.39		0.38	0.000
9282.22	115.950	0.096	63.82	38.89	44.993	0.000	24.39		0.38	0.000
9292.30	115.983	0.240	63.78	38.86	44.941	0.000	24.40		0.38	0.000
9302.37	116.003	-1.454	63.75	38.84	45.035	0.000	24.39		0.38	0.000
9312.43	115.921	-0.757	63.87	38.92	45.015	0.000	24.39		0.38	0.000
9322.51	115.894	-0.986	63.91	38.94	45.009	0.000	24.40		0.38	0.000
9332.58	115.908	-0.421	63.89	38.93	44.992	0.000	24.40		0.38	0.000
9342.65	116.021	-1.995	63.72	38.83	45.149	0.000	24.40		0.38	0.000
9352.70	115.920	-0.132	63.87	38.92	44.970	0.000	24.40		0.38	0.000
9362.77	115.950	-0.781	63.82	38.89	45.022	0.000	24.40		0.38	0.000
9372.85	115.956	-0.889	63.82	38.89	45.041	0.000	24.40		0.38	0.000
9382.93	115.948	0.625	63.83	38.90	44.997	0.000	24.40		0.38	0.000
9392.98	115.961	1.166	63.81	38.88	44.964	0.000	24.39		0.38	0.000